{
  "resourceType": "Bundle",
  "type": "collection",
  "entry": [
    {
      "fullUrl": "resource:0",
      "resource": {
        "resourceType": "Patient",
        "name": [
          {
            "family": "Anyperson",
            "given": [
              "Jane",
              "C."
            ]
          }
        ],
        "gender": "male",
        "birthDate": "1961-01-20"
      }
    },
    {
      "fullUrl": "resource:1",
      "resource": {
        "resourceType": "Immunization",
        "status": "completed",
        "vaccineCode": {
          "coding": [
            {
              "system": "http://hl7.org/fhir/sid/cvx",
              "code": "208"
            }
          ]
        },
        "patient": {
          "reference": "resource:0"
        },
        "occurrenceDateTime": "2021-01-01",
        "primarySource": true,
        "location": {
          "reference": "resource:3"
        },
        "lotNumber": "Lot #0000001"
      }
    },
    {
      "fullUrl": "resource:2",
      "resource": {
        "resourceType": "Immunization",
        "status": "completed",
        "vaccineCode": {
          "coding": [
            {
              "system": "http://hl7.org/fhir/sid/cvx",
              "code": "208"
            }
          ]
        },
        "patient": {
          "reference": "Patient/Scenario2Patient"
        },
        "occurrenceDateTime": "2021-01-29",
        "primarySource": true,
        "location": {
          "reference": "resource:3"
        },
        "lotNumber": "Lot #0000007"
      }
    },
    {
      "fullUrl": "resource:3",
      "resource": {
        "resourceType": "Location",
        "name": "ABC Pharmacy"
      }
    }
  ]
}